Folder: technischechemie/xps/data/pet

Note: README.md
# Analytische und technische Chemie Protokolle

Diese Sammlung enthält Chemie-Laborprotokolle und Präsentationen aus analytischer und technischer Chemie.
Die Dokumente können als **Vorlagen**, **Layout-Referenzen** oder als Beispiel für automatisierte Auswertung mit LuaLaTeX verwendet werden.

Ein Teil der Protokolle wurde mit Lua und LuaLaTeX erstellt, um:

* automatische Berechnungen direkt im Dokument durchzuführen
* Messdaten auszuwerten
* Diagramme und visuelle Darstellungen automatisch zu erzeugen

Die Projekte entstanden ursprünglich vor ca. 10 Jahren, können aber weiterhin als Grundlage oder Inspiration dienen.

---

## Inhalt

### Vorträge und Protokolle

* [Lactame und ihre Verwendung](vortrag/lactame.pdf)
* [Flammen Emission Spektroskopie](fes/auswert_fes.pdf)

### Fluoreszenz

* [Abgabe](fluoreszenz/fluoreszenz.pdf)
* [Aufbau des Fluoreszenz-Spektrometers](fluoreszenz/aufbau.pdf)
* [Naphtol-Naphtolat Gleichgewichtspektren](fluoreszenz/auswert_fluor)

### Chromatographie

* [Gaswäsche](gaswasche/prot.pdf)
* [Gas Chromatographie](gc/kalibrier.pdf)

#### HPLC

* [Abgabe](hplc/hplc.pdf)
* [Diskussion](hplc/diskussion.pdf)
* [Charakterisierung eines Chromatographie-Systems](hplc/benzoetable.pdf)

### Spektroskopie

* [IR-Spektroskopie](irspektroskopie/irspektroskopie.pdf)
* [XPS](xps/xps.pdf)
* [Spektro Übung](spektro/spektro.pdf)

### Weitere Themen

* [Potentiometrie](potentiometrie/potentiometrie.pdf)
* [Wärmeübertragung](warme/warme.pdf)

---

## Verwendung als Vorlage

Diese Dokumente können als Grundlage für eigene Protokolle dienen:

* Struktur wissenschaftlicher Laborberichte
* Layout und Typografie mit LaTeX
* Integration von Diagrammen und Auswertungen
* Automatisierte Berechnungen

Bitte beachten:

* Einige LuaLaTeX-Features sind möglicherweise nicht mehr modern oder optimal.
* Anpassungen an aktuelle TeX-Distributionen können nötig sein.

---

## Technischer Hintergrund

Die Projekte nutzen u.a.:

* LuaLaTeX
* Lua zur Datenverarbeitung
* automatische Plot-Generierung
* wissenschaftliche Typografie

Die Idee war, Messdaten direkt im Dokument auszuwerten.

File: ubersichtspektrern.txt
?
Axis	Energy	Elements=	1361

C:\Users\AG Wittstock\Documents\Iza\06_27.01.2017\PET_03\Polyanalyse.DATA\Survey_3.VGD

Binding Energy (E)
eV		Counts / s
1350.00		46516.3
1345.00		47101.6
1340.00		46952.2
1335.00		45688.0
1330.00		46828.3
1325.00		48612.9
1320.00		47781.1
1315.00		48715.5
1310.00		48895.2
1305.00		49342.8
1300.00		49839.6
1295.00		50215.1
1290.00		50664.1
1285.00		51539.6
1280.00		53242.8
1275.00		52445.8
1270.00		53712.2
1265.00		54088.0
1260.00		55437.6
1255.00		54943.8
1250.00		57845.8
1245.00		58148.4
1240.00		61812.2
1235.00		62506.4
1230.00		62546.0
1225.00		54820.3
1220.00		48406.4
1215.00		43968.9
1210.00		39736.9
1205.00		40136.3
1200.00		41340.0
1195.00		42424.3
1190.00		41114.7
1185.00		43588.0
1180.00		42606.0
1175.00		42262.9
1170.00		44642.8
1165.00		43821.1
1160.00		43191.4
1155.00		43428.7
1150.00		45345.0
1145.00		44415.3
1140.00		45748.0
1135.00		45911.0
1130.00		45456.2
1125.00		47019.1
1120.00		46447.4
1115.00		48115.1
1110.00		47948.6
1105.00		49030.1
1100.00		50053.4
1095.00		49332.3
1090.00		49255.8
1085.00		50978.9
1080.00		50344.0
1075.00		50761.2
1070.00		51977.9
1065.00		52955.8
1060.00		54705.6
1055.00		53267.7
1050.00		52811.6
1045.00		54282.3
1040.00		56778.9
1035.00		56306.6
1030.00		56269.3
1025.00		56599.8
1020.00		56589.8
1015.00		57358.0
1010.00		57293.4
1005.00		61826.1
1000.00		61573.1
995.000		56244.2
990.000		54606.2
985.000		54904.0
980.000		61190.0
975.000		59151.4
970.000		47907.6
965.000		39609.8
960.000		37966.7
955.000		38595.0
950.000		38551.4
945.000		36288.0
940.000		37216.9
935.000		37486.9
930.000		38072.3
925.000		38815.1
920.000		37038.6
915.000		39260.4
910.000		38750.4
905.000		39672.1
900.000		39456.0
895.000		39829.3
890.000		39254.0
885.000		42177.5
880.000		42003.6
875.000		41675.9
870.000		40699.8
865.000		42325.1
860.000		43089.8
855.000		42517.9
850.000		42345.0
845.000		44059.8
840.000		44045.8
835.000		43117.5
830.000		43578.3
825.000		42331.9
820.000		44674.7
815.000		44625.3
810.000		44308.0
805.000		44681.7
800.000		46989.2
795.000		46412.9
790.000		47713.3
785.000		46333.9
780.000		45830.3
775.000		46495.8
770.000		48106.0
765.000		47878.5
760.000		48325.1
755.000		48140.0
750.000		48632.7
745.000		49767.7
740.000		49659.8
735.000		49320.3
730.000		50487.6
725.000		50046.2
720.000		50248.2
715.000		51151.0
710.000		50692.8
705.000		50591.2
700.000		50320.9
695.000		51799.2
690.000		52786.9
685.000		54266.9
680.000		52258.2
675.000		51952.2
670.000		51950.2
665.000		52773.3
660.000		52641.2
655.000		53216.5
650.000		54580.9
645.000		54790.0
640.000		53944.8
635.000		55663.9
630.000		55165.1
625.000		55167.1
620.000		53226.1
615.000		54899.2
610.000		56882.9
605.000		57979.1
600.000		56420.9
595.000		55829.5
590.000		56629.5
585.000		56644.6
580.000		56954.2
575.000		57200.2
570.000		57468.3
565.000		55240.0
560.000		59163.5
555.000		57401.6
550.000		53431.9
545.000		45529.5
540.000		41500.0
535.000		77080.3
530.000		51629.1
525.000		27272.1
520.000		27547.2
515.000		27610.0
510.000		28136.3
505.000		28595.6
500.000		28335.3
495.000		28562.9
490.000		28894.8
485.000		28121.7
480.000		29230.7
475.000		29619.7
470.000		28555.4
465.000		29655.8
460.000		29789.6
455.000		30160.0
450.000		29223.1
445.000		30374.9
440.000		30672.7
435.000		30628.5
430.000		31325.9
425.000		30973.7
420.000		31527.7
415.000		31094.4
410.000		30895.8
405.000		32306.2
400.000		32779.9
395.000		32789.4
390.000		31775.7
385.000		31773.7
380.000		33390.4
375.000		33735.1
370.000		34419.1
365.000		34915.1
360.000		33784.3
355.000		34621.7
350.000		35306.2
345.000		35142.0
340.000		36193.4
335.000		36781.7
330.000		37637.8
325.000		36497.8
320.000		37596.4
315.000		39541.2
310.000		39751.2
305.000		35003.4
300.000		27209.2
295.000		23449.0
290.000		44976.5
285.000		163938.
280.000		3789.56
275.000		2632.33
270.000		3258.03
265.000		3161.85
260.000		2289.56
255.000		2500.40
250.000		3078.11
245.000		2513.65
240.000		2622.09
235.000		2735.74
230.000		2851.41
225.000		2728.92
220.000		2809.24
215.000		3139.16
210.000		2544.18
205.000		3092.57
200.000		2793.98
195.000		2618.27
190.000		2921.08
185.000		3222.89
180.000		3128.71
175.000		2928.71
170.000		2726.10
165.000		3123.29
160.000		3169.68
155.000		3230.72
150.000		3223.69
145.000		3011.45
140.000		2785.14
135.000		3122.49
130.000		3224.70
125.000		3218.47
120.000		3062.85
115.000		3138.96
110.000		3289.76
105.000		3454.42
100.000		3244.58
95.0000		3226.31
90.0000		3422.69
85.0000		3330.72
80.0000		3041.97
75.0000		3470.28
70.0000		3364.06
65.0000		3372.29
60.0000		3350.80
55.0000		3834.94
50.0000		3439.76
45.0000		3166.67
40.0000		2979.92
35.0000		2974.30
30.0000		4585.74
25.0000		4366.47
20.0000		3060.04
15.0000		3236.75
10.0000		2649.40
5.00000		1112.25
0.000000		25.5020
-5.00000		0.000000
-10.0000		0.000000